sentenceID,isConcordant,sentenceType,isPlausible,sentenceContent,sentenceLoop.thisRepN,sentenceLoop.thisTrialN,sentenceLoop.thisN,sentenceLoop.thisIndex,instr.started,instr.stopped,confirm.keys,confirm.rt,confirm.started,confirm.stopped,isNative.started,isNative.stopped,isNativeResp.keys,isNativeResp.rt,isNativeResp.started,isNativeResp.stopped,text.started,text.stopped,text_2.started,text_2.stopped,practice1Cross.started,practice1Cross.stopped,practice1Text.started,practice1Text.stopped,practice1Resp.keys,practice1Resp.rt,practice1Resp.started,practice1Resp.stopped,feedback1Text.started,feedback1Text.stopped,feedback1Blank.started,feedback1Blank.stopped,practice2Cross.started,practice2Cross.stopped,practice2Text.started,practice2Text.stopped,practice2Resp.keys,practice2Resp.rt,practice2Resp.started,practice2Resp.stopped,feedback2Text.started,feedback2Text.stopped,feedback2Blank.started,feedback2Blank.stopped,sentence.started,sentence.stopped,fixationCross.started,fixationCross.stopped,sentenceResp.keys,sentenceResp.rt,sentenceResp.started,sentenceResp.stopped,debriefText.started,debriefText.stopped,participant,session,date,expName,psychopyVersion,frameRate,
,,,,,,,,,17.897694600047544,None,y,57.94227689993568,17.897694600047544,None,,,,,,,,,,,,,,,,,,,,,,,,,,,,,,,,,,,,,,,,,,,,,1,001,2021_Dec_01_1455,sentPlausibility,2021.2.3,60.01187034053182,
,,,,,,,,,,,,,,,75.86326640006155,None,n,3.9021149000618607,75.86326640006155,None,,,,,,,,,,,,,,,,,,,,,,,,,,,,,,,,,,,,,,,1,001,2021_Dec_01_1455,sentPlausibility,2021.2.3,60.01187034053182,
,,,,,,,,,,,,,,,,,,,,,79.79329210007563,84.80520040006377,84.77251969999634,None,87.78618380008265,88.78567640017718,88.76906210021116,None,y,1.6865272000432014,88.76906210021116,None,,,,,,,,,,,,,,,,,,,,,,,,,,,1,001,2021_Dec_01_1455,sentPlausibility,2021.2.3,60.01187034053182,
,,,,,,,,,,,,,,,,,,,,,,,,,,,,,,,,,90.51200010022148,95.5128924001474,95.49688640004024,None,98.5106347000692,99.51015330012888,99.49358240002766,None,n,1.449577199993655,99.49358240002766,None,,,,,,,,,,,,,,,1,001,2021_Dec_01_1455,sentPlausibility,2021.2.3,60.01187034053182,
55,False,intransitive,True,The sugar dissolved in the milk.,0,0,0,54,,,,,,,,,,,,,,,,,,,,,,,,,,,,,,,,,,,,,100.98551730019972,105.98777710017748,105.97200060007162,None,110.05171600007452,None,109.05687450012192,110.06822120002471,y,1.4038907999638468,110.05171600007452,None,,,1,001,2021_Dec_01_1455,sentPlausibility,2021.2.3,60.01187034053182,
59,False,intransitive,True,The soup heated in the pot.,0,1,1,58,,,,,,,,,,,,,,,,,,,,,,,,,,,,,,,,,,,,,,,,,112.48290460021235,None,111.49673190014437,112.49950230005197,y,1.1765360001008958,112.48290460021235,None,,,1,001,2021_Dec_01_1455,sentPlausibility,2021.2.3,60.01187034053182,
5,True,transitive,True,The waiter poured the wine.,0,2,2,4,,,,,,,,,,,,,,,,,,,,,,,,,,,,,,,,,,,,,,,,,114.68114550015889,None,113.69294110010378,114.69759850017726,n,1.1182979999575764,114.68114550015889,None,,,1,001,2021_Dec_01_1455,sentPlausibility,2021.2.3,60.01187034053182,
2,True,transitive,False,The box opened the teacher.,0,3,3,1,,,,,,,,,,,,,,,,,,,,,,,,,,,,,,,,,,,,,,,,,116.82923540007323,None,115.84289270010777,116.84606970008463,n,1.085020000115037,116.82923540007323,None,,,1,001,2021_Dec_01_1455,sentPlausibility,2021.2.3,60.01187034053182,
54,False,intransitive,False,The table poured over the wine.,0,4,4,53,,,,,,,,,,,,,,,,,,,,,,,,,,,,,,,,,,,,,,,,,118.96063060010783,None,117.96253370004706,118.97727540018968,n,1.1759747001342475,118.96063060010783,None,,,1,001,2021_Dec_01_1455,sentPlausibility,2021.2.3,60.01187034053182,
49,False,intransitive,True,The box opened after a short while.,0,5,5,48,,,,,,,,,,,,,,,,,,,,,,,,,,,,,,,,,,,,,,,,,121.17564100003801,None,120.18162480019964,121.19224140001461,y,1.37738629989326,121.17564100003801,None,,,1,001,2021_Dec_01_1455,sentPlausibility,2021.2.3,60.01187034053182,
7,True,transitive,True,The baker dissolved the sugar.,0,6,6,6,,,,,,,,,,,,,,,,,,,,,,,,,,,,,,,,,,,,,,,,,123.57389490003698,None,122.58671070006676,123.59041150007397,y,0.9581847998779267,123.57389490003698,None,,,1,001,2021_Dec_01_1455,sentPlausibility,2021.2.3,60.01187034053182,
13,True,transitive,True,The assistant shut the store.,0,7,7,12,,,,,,,,,,,,,,,,,,,,,,,,,,,,,,,,,,,,,,,,,125.55548249999993,None,124.56906310003251,125.57210030010901,y,0.9189271999057382,125.55548249999993,None,,,1,001,2021_Dec_01_1455,sentPlausibility,2021.2.3,60.01187034053182,
11,True,transitive,True,The cook heated the soup.,0,8,8,10,,,,,,,,,,,,,,,,,,,,,,,,,,,,,,,,,,,,,,,,,127.50402930006385,None,126.51545940013602,127.52049760008231,y,0.8003892998676747,127.50402930006385,None,,,1,001,2021_Dec_01_1455,sentPlausibility,2021.2.3,60.01187034053182,
51,False,intransitive,True,The pipe clogged after the rain.,0,9,9,50,,,,,,,,,,,,,,,,,,,,,,,,,,,,,,,,,,,,,,,,,129.31886830017902,None,128.33318529999815,129.33560600015335,y,0.8652721999678761,129.31886830017902,None,,,1,001,2021_Dec_01_1455,sentPlausibility,2021.2.3,60.01187034053182,
31,True,intransitive,True,The soup boiled in the pot.,0,10,10,30,,,,,,,,,,,,,,,,,,,,,,,,,,,,,,,,,,,,,,,,,131.20068400003947,None,130.21432070014998,131.21742840018123,y,0.8005561998579651,131.20068400003947,None,,,1,001,2021_Dec_01_1455,sentPlausibility,2021.2.3,60.01187034053182,
15,True,transitive,True,The girl tore her sweater.,0,11,11,14,,,,,,,,,,,,,,,,,,,,,,,,,,,,,,,,,,,,,,,,,133.01602290011942,None,132.02840590011328,133.0325853000395,y,1.242434100015089,133.01602290011942,None,,,1,001,2021_Dec_01_1455,sentPlausibility,2021.2.3,60.01187034053182,
33,False,transitive,True,His parents grow flowers on their balcony.,0,12,12,32,,,,,,,,,,,,,,,,,,,,,,,,,,,,,,,,,,,,,,,,,135.29772360017523,None,134.30426150001585,135.31431170017458,y,1.338545999955386,135.29772360017523,None,,,1,001,2021_Dec_01_1455,sentPlausibility,2021.2.3,60.01187034053182,
22,True,intransitive,False,The street exploded in the bomb.,0,13,13,21,,,,,,,,,,,,,,,,,,,,,,,,,,,,,,,,,,,,,,,,,137.66224830015562,None,136.6776568000205,137.6788829001598,y,0.7647170999553055,137.66224830015562,None,,,1,001,2021_Dec_01_1455,sentPlausibility,2021.2.3,60.01187034053182,
42,False,transitive,False,The shirt shrank the hot water.,0,14,14,41,,,,,,,,,,,,,,,,,,,,,,,,,,,,,,,,,,,,,,,,,139.44409740017727,None,138.4587572000455,139.46074210014194,y,1.3861902998760343,139.44409740017727,None,,,1,001,2021_Dec_01_1455,sentPlausibility,2021.2.3,60.01187034053182,
6,True,transitive,False,The wine poured the waiter.,0,15,15,5,,,,,,,,,,,,,,,,,,,,,,,,,,,,,,,,,,,,,,,,,141.8587562001776,None,140.87050120020285,141.8753850001376,n,1.534118500072509,141.8587562001776,None,,,1,001,2021_Dec_01_1455,sentPlausibility,2021.2.3,60.01187034053182,
24,True,intransitive,False,The sun hardened in the concrete.,0,16,16,23,,,,,,,,,,,,,,,,,,,,,,,,,,,,,,,,,,,,,,,,,144.42329530022107,None,143.43497629999183,144.44000460021198,y,1.6284429000224918,144.42329530022107,None,,,1,001,2021_Dec_01_1455,sentPlausibility,2021.2.3,60.01187034053182,
45,False,transitive,True,The boy burst the balloon.,0,17,17,44,,,,,,,,,,,,,,,,,,,,,,,,,,,,,,,,,,,,,,,,,147.0712025000248,None,146.08276280015707,147.08764480007812,y,1.0254465998150408,147.0712025000248,None,,,1,001,2021_Dec_01_1455,sentPlausibility,2021.2.3,60.01187034053182,
48,False,transitive,False,The soup boiled the cook.,0,18,18,47,,,,,,,,,,,,,,,,,,,,,,,,,,,,,,,,,,,,,,,,,149.11932729999535,None,148.13135760021396,149.13605520012788,n,0.9885460000950843,149.11932729999535,None,,,1,001,2021_Dec_01_1455,sentPlausibility,2021.2.3,60.01187034053182,
32,True,intransitive,False,The cook boiled in the pot.,0,19,19,31,,,,,,,,,,,,,,,,,,,,,,,,,,,,,,,,,,,,,,,,,151.13440260011703,None,150.14510480011813,151.15103960013948,y,1.0937717999331653,151.13440260011703,None,,,1,001,2021_Dec_01_1455,sentPlausibility,2021.2.3,60.01187034053182,
28,True,intransitive,False,My hands crumbled in the cake.,0,20,20,27,,,,,,,,,,,,,,,,,,,,,,,,,,,,,,,,,,,,,,,,,153.26609160006046,None,152.27344410005026,153.2826461000368,y,1.2854755001608282,153.26609160006046,None,,,1,001,2021_Dec_01_1455,sentPlausibility,2021.2.3,60.01187034053182,
38,False,transitive,False,The bomb exploded the guards.,0,21,21,37,,,,,,,,,,,,,,,,,,,,,,,,,,,,,,,,,,,,,,,,,155.58071210002527,None,154.59332170011476,155.59722040011548,y,1.2906303000636399,155.58071210002527,None,,,1,001,2021_Dec_01_1455,sentPlausibility,2021.2.3,60.01187034053182,
58,False,intransitive,False,The heat softened the butter.,0,22,22,57,,,,,,,,,,,,,,,,,,,,,,,,,,,,,,,,,,,,,,,,,157.8955437000841,None,156.90932180010714,157.91221460001543,y,1.468818600056693,157.8955437000841,None,,,1,001,2021_Dec_01_1455,sentPlausibility,2021.2.3,60.01187034053182,
1,True,transitive,True,The teacher opened the box. ,0,23,23,0,,,,,,,,,,,,,,,,,,,,,,,,,,,,,,,,,,,,,,,,,160.39343210007064,None,159.4085188000463,160.4101302002091,y,0.9360547000542283,160.39343210007064,None,,,1,001,2021_Dec_01_1455,sentPlausibility,2021.2.3,60.01187034053182,
56,False,intransitive,False,The baker dissolved in the milk.,0,24,24,55,,,,,,,,,,,,,,,,,,,,,,,,,,,,,,,,,,,,,,,,,162.3585549001582,None,161.37117390008643,162.37520820018835,y,0.9048346998170018,162.3585549001582,None,,,1,001,2021_Dec_01_1455,sentPlausibility,2021.2.3,60.01187034053182,
4,True,transitive,False,The pipe clogged the leaves.,0,25,25,3,,,,,,,,,,,,,,,,,,,,,,,,,,,,,,,,,,,,,,,,,164.29028529999778,None,163.30368270003237,164.3068613000214,n,1.6002227999269962,164.29028529999778,None,,,1,001,2021_Dec_01_1455,sentPlausibility,2021.2.3,60.01187034053182,
60,False,intransitive,False,The cook heated in the soup.,0,26,26,59,,,,,,,,,,,,,,,,,,,,,,,,,,,,,,,,,,,,,,,,,166.9212963001337,None,165.9341772000771,166.93810060014948,n,1.9386845999397337,166.9212963001337,None,,,1,001,2021_Dec_01_1455,sentPlausibility,2021.2.3,60.01187034053182,
52,False,intransitive,False,The leaves clogged after the rain.,0,27,27,51,,,,,,,,,,,,,,,,,,,,,,,,,,,,,,,,,,,,,,,,,169.8856409001164,None,168.89823520020582,169.90224640001543,y,1.162545199971646,169.8856409001164,None,,,1,001,2021_Dec_01_1455,sentPlausibility,2021.2.3,60.01187034053182,
27,True,intransitive,True,The cake crumbled in my hands.,0,28,28,26,,,,,,,,,,,,,,,,,,,,,,,,,,,,,,,,,,,,,,,,,172.06720020016655,None,171.08024909999222,172.0840423000045,y,2.1014648000709713,172.06720020016655,None,,,1,001,2021_Dec_01_1455,sentPlausibility,2021.2.3,60.01187034053182,
46,False,transitive,False,The balloon burst the boy.,0,29,29,45,,,,,,,,,,,,,,,,,,,,,,,,,,,,,,,,,,,,,,,,,175.19799400004558,None,174.21066500013694,175.21463310020044,n,1.2653339998796582,175.19799400004558,None,,,1,001,2021_Dec_01_1455,sentPlausibility,2021.2.3,60.01187034053182,
10,True,transitive,False,The butter softened the heat.,0,30,30,9,,,,,,,,,,,,,,,,,,,,,,,,,,,,,,,,,,,,,,,,,177.47944430005737,None,176.4909666001331,177.49612450017594,n,1.5518215999472886,177.47944430005737,None,,,1,001,2021_Dec_01_1455,sentPlausibility,2021.2.3,60.01187034053182,
41,False,transitive,True,The hot water shrank the shirt.,0,31,31,40,,,,,,,,,,,,,,,,,,,,,,,,,,,,,,,,,,,,,,,,,180.06070150015876,None,179.07244490017183,180.07724990020506,y,1.8817639001645148,180.06070150015876,None,,,1,001,2021_Dec_01_1455,sentPlausibility,2021.2.3,60.01187034053182,
23,True,intransitive,True,The concrete hardened in the sun.,0,32,32,22,,,,,,,,,,,,,,,,,,,,,,,,,,,,,,,,,,,,,,,,,182.95833720010705,None,181.97326070000418,182.97505150013603,y,1.233166699996218,182.95833720010705,None,,,1,001,2021_Dec_01_1455,sentPlausibility,2021.2.3,60.01187034053182,
25,True,intransitive,True,The shirt shrank in the wash.,0,33,33,24,,,,,,,,,,,,,,,,,,,,,,,,,,,,,,,,,,,,,,,,,185.20638980017975,None,184.22039670008235,185.22293960000388,y,1.9906689000781626,185.20638980017975,None,,,1,001,2021_Dec_01_1455,sentPlausibility,2021.2.3,60.01187034053182,
44,False,transitive,False,The cake crumbled the cook.,0,34,34,43,,,,,,,,,,,,,,,,,,,,,,,,,,,,,,,,,,,,,,,,,188.23706430010498,None,187.24027690012008,188.25371810002252,n,1.3846123998519033,188.23706430010498,None,,,1,001,2021_Dec_01_1455,sentPlausibility,2021.2.3,60.01187034053182,
16,True,transitive,False,The sweater tore the girl.,0,35,35,15,,,,,,,,,,,,,,,,,,,,,,,,,,,,,,,,,,,,,,,,,190.65183490002528,None,189.66292590019293,190.66854830016382,n,1.780262399930507,190.65183490002528,None,,,1,001,2021_Dec_01_1455,sentPlausibility,2021.2.3,60.01187034053182,
62,False,intransitive,False,The assistant shut at six o’clock.,0,36,36,61,,,,,,,,,,,,,,,,,,,,,,,,,,,,,,,,,,,,,,,,,193.46634760010056,None,192.47384350001812,193.48301160009578,n,1.5919988001696765,193.46634760010056,None,,,1,001,2021_Dec_01_1455,sentPlausibility,2021.2.3,60.01187034053182,
8,True,transitive,False,The sugar dissolved the baker.,0,37,37,7,,,,,,,,,,,,,,,,,,,,,,,,,,,,,,,,,,,,,,,,,196.08100950019434,None,195.09382720012218,196.0974653000012,n,1.1006801000330597,196.08100950019434,None,,,1,001,2021_Dec_01_1455,sentPlausibility,2021.2.3,60.01187034053182,
43,False,transitive,True,The cook crumbled the cake.,0,38,38,42,,,,,,,,,,,,,,,,,,,,,,,,,,,,,,,,,,,,,,,,,198.21245920006186,None,197.2254210000392,198.22906869999133,y,1.2235653998795897,198.21245920006186,None,,,1,001,2021_Dec_01_1455,sentPlausibility,2021.2.3,60.01187034053182,
26,True,intransitive,False,The wash shrank in the shirt.,0,39,39,25,,,,,,,,,,,,,,,,,,,,,,,,,,,,,,,,,,,,,,,,,200.46057140012272,202.97471219999716,199.4745891999919,200.4770810001064,n,2.8935251999646425,200.46057140012272,None,,,1,001,2021_Dec_01_1455,sentPlausibility,2021.2.3,60.01187034053182,
64,False,intransitive,False,The seams tore along the sweater.,0,40,40,63,,,,,,,,,,,,,,,,,,,,,,,,,,,,,,,,,,,,,,,,,204.37404930009507,None,203.38808170007542,204.3907039000187,n,2.1816260998602957,204.37404930009507,None,,,1,001,2021_Dec_01_1455,sentPlausibility,2021.2.3,60.01187034053182,
39,False,transitive,True,The sun hardened the sand.,0,41,41,38,,,,,,,,,,,,,,,,,,,,,,,,,,,,,,,,,,,,,,,,,207.57149290014058,None,206.58396670012735,207.58796110004187,y,1.2362978998571634,207.57149290014058,None,,,1,001,2021_Dec_01_1455,sentPlausibility,2021.2.3,60.01187034053182,
9,True,transitive,True,The heat softened the butter.,0,42,42,8,,,,,,,,,,,,,,,,,,,,,,,,,,,,,,,,,,,,,,,,,209.83622490009293,None,208.8483065001201,209.8526272000745,n,2.441528699826449,209.83622490009293,None,,,1,001,2021_Dec_01_1455,sentPlausibility,2021.2.3,60.01187034053182,
14,True,transitive,False,The store shut the assistant.,0,43,43,13,,,,,,,,,,,,,,,,,,,,,,,,,,,,,,,,,,,,,,,,,213.29981770017184,None,212.31496800016612,213.31657620007172,n,1.11548630008474,213.29981770017184,None,,,1,001,2021_Dec_01_1455,sentPlausibility,2021.2.3,60.01187034053182,
47,False,transitive,True,The cook boiled the soup.,0,44,44,46,,,,,,,,,,,,,,,,,,,,,,,,,,,,,,,,,,,,,,,,,215.4336874000728,None,214.44254360022023,215.44803660013713,y,1.0123485000804067,215.4336874000728,None,,,1,001,2021_Dec_01_1455,sentPlausibility,2021.2.3,60.01187034053182,
29,True,intransitive,True,The balloon burst behind the boy.,0,45,45,28,,,,,,,,,,,,,,,,,,,,,,,,,,,,,,,,,,,,,,,,,217.46321980003268,None,216.47753890021704,217.47981170006096,n,0.9498831999953836,217.46321980003268,None,,,1,001,2021_Dec_01_1455,sentPlausibility,2021.2.3,60.01187034053182,
21,True,intransitive,True,The bomb exploded in the street.,0,46,46,20,,,,,,,,,,,,,,,,,,,,,,,,,,,,,,,,,,,,,,,,,219.42841600021347,None,218.44419630011544,219.44497520010918,y,1.3010514001362026,219.42841600021347,None,,,1,001,2021_Dec_01_1455,sentPlausibility,2021.2.3,60.01187034053182,
53,False,intransitive,True,The wine poured over the table.,0,47,47,52,,,,,,,,,,,,,,,,,,,,,,,,,,,,,,,,,,,,,,,,,221.7597501000855,None,220.77128640003502,221.77641440019943,y,1.1207039000000805,221.7597501000855,None,,,1,001,2021_Dec_01_1455,sentPlausibility,2021.2.3,60.01187034053182,
18,True,intransitive,False,The clusters grew in the flowers.,0,48,48,17,,,,,,,,,,,,,,,,,,,,,,,,,,,,,,,,,,,,,,,,,223.90798850008287,None,222.9220908000134,223.92447830014862,n,1.9899168000556529,223.90798850008287,None,,,1,001,2021_Dec_01_1455,sentPlausibility,2021.2.3,60.01187034053182,
12,True,transitive,False,The soup heated the cook.,0,49,49,11,,,,,,,,,,,,,,,,,,,,,,,,,,,,,,,,,,,,,,,,,226.9220755000133,None,225.93411960010417,226.93876380007714,n,1.5848044999875128,226.9220755000133,None,,,1,001,2021_Dec_01_1455,sentPlausibility,2021.2.3,60.01187034053182,
50,False,intransitive,False,The teacher opened after a short while.,0,50,50,49,,,,,,,,,,,,,,,,,,,,,,,,,,,,,,,,,,,,,,,,,229.53670650022104,None,228.5521217000205,229.5532213000115,n,1.996199999935925,229.53670650022104,None,,,1,001,2021_Dec_01_1455,sentPlausibility,2021.2.3,60.01187034053182,
40,False,transitive,False,The sand hardened the sun.,0,51,51,39,,,,,,,,,,,,,,,,,,,,,,,,,,,,,,,,,,,,,,,,,232.5507345001679,None,231.5640821000561,232.56750140013173,n,1.2408364000730217,232.5507345001679,None,,,1,001,2021_Dec_01_1455,sentPlausibility,2021.2.3,60.01187034053182,
35,False,transitive,True,The waves sank the boat.,0,52,52,34,,,,,,,,,,,,,,,,,,,,,,,,,,,,,,,,,,,,,,,,,234.8156306000892,None,233.82802250003442,234.83229190018028,y,1.3828173000365496,234.8156306000892,None,,,1,001,2021_Dec_01_1455,sentPlausibility,2021.2.3,60.01187034053182,
19,True,intransitive,True,The boat sank in the storm.,0,53,53,18,,,,,,,,,,,,,,,,,,,,,,,,,,,,,,,,,,,,,,,,,237.2136666001752,None,236.22798480000347,237.2303961000871,y,1.278160500107333,237.2136666001752,None,,,1,001,2021_Dec_01_1455,sentPlausibility,2021.2.3,60.01187034053182,
61,False,intransitive,True,The store shut at six o’clock.,0,54,54,60,,,,,,,,,,,,,,,,,,,,,,,,,,,,,,,,,,,,,,,,,239.51194120012224,None,238.52756790001877,239.52843900001608,y,1.0796440998092294,239.51194120012224,None,,,1,001,2021_Dec_01_1455,sentPlausibility,2021.2.3,60.01187034053182,
37,False,transitive,True,The guards exploded the bomb.,0,55,55,36,,,,,,,,,,,,,,,,,,,,,,,,,,,,,,,,,,,,,,,,,241.61007610009983,None,240.62372410017997,241.62673520017415,n,1.2211894998326898,241.61007610009983,None,,,1,001,2021_Dec_01_1455,sentPlausibility,2021.2.3,60.01187034053182,
36,False,transitive,False,The boat sank the waves.,0,56,56,35,,,,,,,,,,,,,,,,,,,,,,,,,,,,,,,,,,,,,,,,,243.85817230003886,246.37240290013142,242.8719541002065,243.87480870005675,y,3.050600599963218,243.85817230003886,None,,,1,001,2021_Dec_01_1455,sentPlausibility,2021.2.3,60.01187034053182,
63,False,intransitive,True,The sweater tore along the seams.,0,57,57,62,,,,,,,,,,,,,,,,,,,,,,,,,,,,,,,,,,,,,,,,,247.93822260014713,None,246.95203220006078,247.9548725001514,y,1.154227500082925,247.93822260014713,None,,,1,001,2021_Dec_01_1455,sentPlausibility,2021.2.3,60.01187034053182,
30,True,intransitive,False,The boy burst behind the balloon.,0,58,58,29,,,,,,,,,,,,,,,,,,,,,,,,,,,,,,,,,,,,,,,,,250.11970020015724,None,249.13350160000846,250.1363447001204,n,1.2475522998720407,250.11970020015724,None,,,1,001,2021_Dec_01_1455,sentPlausibility,2021.2.3,60.01187034053182,
3,True,transitive,True,The leaves clogged the pipe.,0,59,59,2,,,,,,,,,,,,,,,,,,,,,,,,,,,,,,,,,,,,,,,,,252.38423359999433,None,251.39660220011137,252.4009130001068,y,1.0214270001742989,252.38423359999433,None,,,1,001,2021_Dec_01_1455,sentPlausibility,2021.2.3,60.01187034053182,
17,True,intransitive,True,The flowers grew in clusters.,0,60,60,16,,,,,,,,,,,,,,,,,,,,,,,,,,,,,,,,,,,,,,,,,254.44940540008247,None,253.46285100001842,254.46619010018185,y,1.0857323000673205,254.44940540008247,None,,,1,001,2021_Dec_01_1455,sentPlausibility,2021.2.3,60.01187034053182,
20,True,intransitive,False,The storm sank in the boat.,0,61,61,19,,,,,,,,,,,,,,,,,,,,,,,,,,,,,,,,,,,,,,,,,256.5810670000501,None,255.58134190016426,256.5810670000501,y,2.15094710001722,256.5810670000501,None,,,1,001,2021_Dec_01_1455,sentPlausibility,2021.2.3,60.01187034053182,
57,False,intransitive,True,The butter softened in the heat.,0,62,62,56,,,,,,,,,,,,,,,,,,,,,,,,,,,,,,,,,,,,,,,,,259.7618298002053,None,258.7741032000631,259.77847560006194,y,1.1532809000927955,259.7618298002053,None,,,1,001,2021_Dec_01_1455,sentPlausibility,2021.2.3,60.01187034053182,
34,False,transitive,False,Flowers grow his parents on their balcony.,0,63,63,33,,,,,,,,,,,,,,,,,,,,,,,,,,,,,,,,,,,,,,,,,261.96014310000464,None,260.96440000017174,261.97670600004494,y,2.3897981999907643,261.96014310000464,None,,,1,001,2021_Dec_01_1455,sentPlausibility,2021.2.3,60.01187034053182,
,,,,,,,,,,,,,,,,,,,,,,,,,,,,,,,,,,,,,,,,,,,,,,,,,,,,,,,,,264.3767270001117,None,,,,,,,
