sentenceID,isConcordant,sentenceType,isPlausible,sentenceContent,sentenceLoop.thisRepN,sentenceLoop.thisTrialN,sentenceLoop.thisN,sentenceLoop.thisIndex,instr.started,instr.stopped,confirm.keys,confirm.rt,confirm.started,confirm.stopped,isNative.started,isNative.stopped,isNativeResp.keys,isNativeResp.rt,isNativeResp.started,isNativeResp.stopped,text.started,text.stopped,text_2.started,text_2.stopped,practice1Cross.started,practice1Cross.stopped,practice1Text.started,practice1Text.stopped,practice1Resp.keys,practice1Resp.rt,practice1Resp.started,practice1Resp.stopped,feedback1Text.started,feedback1Text.stopped,feedback1Blank.started,feedback1Blank.stopped,practice2Cross.started,practice2Cross.stopped,practice2Text.started,practice2Text.stopped,practice2Resp.keys,practice2Resp.rt,practice2Resp.started,practice2Resp.stopped,feedback2Text.started,feedback2Text.stopped,feedback2Blank.started,feedback2Blank.stopped,sentence.started,sentence.stopped,fixationCross.started,fixationCross.stopped,sentenceResp.keys,sentenceResp.rt,sentenceResp.started,sentenceResp.stopped,debriefText.started,debriefText.stopped,participant,session,date,expName,psychopyVersion,frameRate,
,,,,,,,,,17.286830299999565,None,y,50.09394420008175,17.286830299999565,None,,,,,,,,,,,,,,,,,,,,,,,,,,,,,,,,,,,,,,,,,,,,,3,001,2021_Dec_01_1507,sentPlausibility,2021.2.3,60.05602029077241,
,,,,,,,,,,,,,,,67.41843659989536,None,n,5.309892100049183,67.41843659989536,None,,,,,,,,,,,,,,,,,,,,,,,,,,,,,,,,,,,,,,,3,001,2021_Dec_01_1507,sentPlausibility,2021.2.3,60.05602029077241,
,,,,,,,,,,,,,,,,,,,,,72.75588189996779,77.76769879995845,77.73499949998222,None,80.74842539988458,81.74815139989369,81.73157910001464,None,y,1.1981176000554115,81.73157910001464,None,,,,,,,,,,,,,,,,,,,,,,,,,,,3,001,2021_Dec_01_1507,sentPlausibility,2021.2.3,60.05602029077241,
,,,,,,,,,,,,,,,,,,,,,,,,,,,,,,,,,82.98607750004157,87.99261879990809,87.97670500003733,None,90.99027660000138,91.98956230003387,91.97293779999018,None,n,1.3476509000174701,91.97293779999018,None,,,,,,,,,,,,,,,3,001,2021_Dec_01_1507,sentPlausibility,2021.2.3,60.05602029077241,
2,True,transitive,False,The box opened the teacher.,0,0,0,1,,,,,,,,,,,,,,,,,,,,,,,,,,,,,,,,,,,,,93.36342229996808,98.36765699996613,98.35161040001549,None,102.43108609993942,None,101.43364029983059,102.4478096999228,n,1.5392409998457879,102.43108609993942,None,,,3,001,2021_Dec_01_1507,sentPlausibility,2021.2.3,60.05602029077241,
63,False,intransitive,True,The sweater tore along the seams.,0,1,1,62,,,,,,,,,,,,,,,,,,,,,,,,,,,,,,,,,,,,,,,,,105.0123015998397,None,104.0138399999123,105.02910259994678,n,1.2463219000492245,105.0123015998397,None,,,3,001,2021_Dec_01_1507,sentPlausibility,2021.2.3,60.05602029077241,
24,True,intransitive,False,The sun hardened in the concrete.,0,2,2,23,,,,,,,,,,,,,,,,,,,,,,,,,,,,,,,,,,,,,,,,,107.27725829998963,109.79135739989579,106.29146179999225,107.29385709995404,n,2.6956098000518978,107.27725829998963,None,,,3,001,2021_Dec_01_1507,sentPlausibility,2021.2.3,60.05602029077241,
26,True,intransitive,False,The wash shrank in the shirt.,0,3,3,25,,,,,,,,,,,,,,,,,,,,,,,,,,,,,,,,,,,,,,,,,110.99076079996303,None,110.00403339997865,111.00722679984756,y,1.8650790001265705,110.99076079996303,None,,,3,001,2021_Dec_01_1507,sentPlausibility,2021.2.3,60.05602029077241,
52,False,intransitive,False,The leaves clogged after the rain.,0,4,4,51,,,,,,,,,,,,,,,,,,,,,,,,,,,,,,,,,,,,,,,,,113.87176640005782,None,112.88618449983187,113.88848259998485,y,2.0863807001151145,113.87176640005782,None,,,3,001,2021_Dec_01_1507,sentPlausibility,2021.2.3,60.05602029077241,
46,False,transitive,False,The balloon burst the boy.,0,5,5,45,,,,,,,,,,,,,,,,,,,,,,,,,,,,,,,,,,,,,,,,,116.98576959990896,None,115.99751809984446,117.00253319996409,n,1.7172183999791741,116.98576959990896,None,,,3,001,2021_Dec_01_1507,sentPlausibility,2021.2.3,60.05602029077241,
6,True,transitive,False,The wine poured the waiter.,0,6,6,5,,,,,,,,,,,,,,,,,,,,,,,,,,,,,,,,,,,,,,,,,119.73361340002157,None,118.74564269999973,119.75028839986771,n,1.328810099978,119.73361340002157,None,,,3,001,2021_Dec_01_1507,sentPlausibility,2021.2.3,60.05602029077241,
5,True,transitive,True,The waiter poured the wine.,0,7,7,4,,,,,,,,,,,,,,,,,,,,,,,,,,,,,,,,,,,,,,,,,122.08179409988225,None,121.09343430004083,122.09834280004725,y,0.9685864001512527,122.08179409988225,None,,,3,001,2021_Dec_01_1507,sentPlausibility,2021.2.3,60.05602029077241,
45,False,transitive,True,The boy burst the balloon.,0,8,8,44,,,,,,,,,,,,,,,,,,,,,,,,,,,,,,,,,,,,,,,,,124.08012239984237,None,123.09374859998934,124.09666769998148,y,1.0787281999364495,124.08012239984237,None,,,3,001,2021_Dec_01_1507,sentPlausibility,2021.2.3,60.05602029077241,
40,False,transitive,False,The sand hardened the sun.,0,9,9,39,,,,,,,,,,,,,,,,,,,,,,,,,,,,,,,,,,,,,,,,,126.17831570003182,None,125.19109910004772,126.19489090004936,n,1.442374899983406,126.17831570003182,None,,,3,001,2021_Dec_01_1507,sentPlausibility,2021.2.3,60.05602029077241,
61,False,intransitive,True,The store shut at six o’clock.,0,10,10,60,,,,,,,,,,,,,,,,,,,,,,,,,,,,,,,,,,,,,,,,,128.6596005000174,None,127.66635770001449,128.67609929991886,y,1.536229900084436,128.6596005000174,None,,,3,001,2021_Dec_01_1507,sentPlausibility,2021.2.3,60.05602029077241,
33,False,transitive,True,His parents grow flowers on their balcony.,0,11,11,32,,,,,,,,,,,,,,,,,,,,,,,,,,,,,,,,,,,,,,,,,131.24105639988557,None,130.2451001999434,131.25750399986282,y,1.8099242998287082,131.24105639988557,None,,,3,001,2021_Dec_01_1507,sentPlausibility,2021.2.3,60.05602029077241,
10,True,transitive,False,The butter softened the heat.,0,12,12,9,,,,,,,,,,,,,,,,,,,,,,,,,,,,,,,,,,,,,,,,,134.07171769998968,None,133.08468209998682,134.08846939983778,n,1.5863908999599516,134.07171769998968,None,,,3,001,2021_Dec_01_1507,sentPlausibility,2021.2.3,60.05602029077241,
23,True,intransitive,True,The concrete hardened in the sun.,0,13,13,22,,,,,,,,,,,,,,,,,,,,,,,,,,,,,,,,,,,,,,,,,136.68646469991654,None,135.6989591999445,136.70305779995397,y,1.8796937000006437,136.68646469991654,None,,,3,001,2021_Dec_01_1507,sentPlausibility,2021.2.3,60.05602029077241,
59,False,intransitive,True,The soup heated in the pot.,0,14,14,58,,,,,,,,,,,,,,,,,,,,,,,,,,,,,,,,,,,,,,,,,139.58396279998124,None,138.59685419988818,139.60067409998737,y,1.3869586000218987,139.58396279998124,None,,,3,001,2021_Dec_01_1507,sentPlausibility,2021.2.3,60.05602029077241,
56,False,intransitive,False,The baker dissolved in the milk.,0,15,15,55,,,,,,,,,,,,,,,,,,,,,,,,,,,,,,,,,,,,,,,,,141.99883529986255,None,141.01159060001373,142.01524099987,n,1.3710094999987632,141.99883529986255,None,,,3,001,2021_Dec_01_1507,sentPlausibility,2021.2.3,60.05602029077241,
31,True,intransitive,True,The soup boiled in the pot.,0,16,16,30,,,,,,,,,,,,,,,,,,,,,,,,,,,,,,,,,,,,,,,,,144.39668169990182,None,143.40915980003774,144.41331349988468,y,1.2919281001668423,144.39668169990182,None,,,3,001,2021_Dec_01_1507,sentPlausibility,2021.2.3,60.05602029077241,
36,False,transitive,False,The boat sank the waves.,0,17,17,35,,,,,,,,,,,,,,,,,,,,,,,,,,,,,,,,,,,,,,,,,146.72788839996792,None,145.7308777999133,146.7445314999204,n,1.426303399959579,146.72788839996792,None,,,3,001,2021_Dec_01_1507,sentPlausibility,2021.2.3,60.05602029077241,
11,True,transitive,True,The cook heated the soup.,0,18,18,10,,,,,,,,,,,,,,,,,,,,,,,,,,,,,,,,,,,,,,,,,149.1934640998952,None,148.1966794000473,149.2090884000063,y,1.0817360999062657,149.1934640998952,None,,,3,001,2021_Dec_01_1507,sentPlausibility,2021.2.3,60.05602029077241,
41,False,transitive,True,The hot water shrank the shirt.,0,19,19,40,,,,,,,,,,,,,,,,,,,,,,,,,,,,,,,,,,,,,,,,,151.30769459996372,None,150.31442640000023,151.32433689991012,y,1.397057899972424,151.30769459996372,None,,,3,001,2021_Dec_01_1507,sentPlausibility,2021.2.3,60.05602029077241,
7,True,transitive,True,The baker dissolved the sugar.,0,20,20,6,,,,,,,,,,,,,,,,,,,,,,,,,,,,,,,,,,,,,,,,,153.72239839984104,None,152.7353425999172,153.73903399985284,y,1.1705831999424845,153.72239839984104,None,,,3,001,2021_Dec_01_1507,sentPlausibility,2021.2.3,60.05602029077241,
20,True,intransitive,False,The storm sank in the boat.,0,21,21,19,,,,,,,,,,,,,,,,,,,,,,,,,,,,,,,,,,,,,,,,,155.92054369999096,None,154.93373199994676,155.93724030000158,y,1.560091600054875,155.92054369999096,None,,,3,001,2021_Dec_01_1507,sentPlausibility,2021.2.3,60.05602029077241,
62,False,intransitive,False,The assistant shut at six o’clock.,0,22,22,61,,,,,,,,,,,,,,,,,,,,,,,,,,,,,,,,,,,,,,,,,158.51862139999866,None,157.51994919986464,158.53508859989233,n,1.43577879993245,158.51862139999866,None,,,3,001,2021_Dec_01_1507,sentPlausibility,2021.2.3,60.05602029077241,
19,True,intransitive,True,The boat sank in the storm.,0,23,23,18,,,,,,,,,,,,,,,,,,,,,,,,,,,,,,,,,,,,,,,,,160.98310259985738,None,159.99528119992465,160.99956929986365,y,1.2742373999208212,160.98310259985738,None,,,3,001,2021_Dec_01_1507,sentPlausibility,2021.2.3,60.05602029077241,
18,True,intransitive,False,The clusters grew in the flowers.,0,24,24,17,,,,,,,,,,,,,,,,,,,,,,,,,,,,,,,,,,,,,,,,,163.28100809990428,None,162.29499699990265,163.29770380002446,n,1.8377884000074118,163.28100809990428,None,,,3,001,2021_Dec_01_1507,sentPlausibility,2021.2.3,60.05602029077241,
30,True,intransitive,False,The boy burst behind the balloon.,0,25,25,29,,,,,,,,,,,,,,,,,,,,,,,,,,,,,,,,,,,,,,,,,166.1455140998587,None,165.16061019990593,166.16216489998624,n,1.6287653998006135,166.1455140998587,None,,,3,001,2021_Dec_01_1507,sentPlausibility,2021.2.3,60.05602029077241,
35,False,transitive,True,The waves sank the boat.,0,26,26,34,,,,,,,,,,,,,,,,,,,,,,,,,,,,,,,,,,,,,,,,,168.79328290000558,None,167.80507600004785,168.8098865998909,y,1.122852599946782,168.79328290000558,None,,,3,001,2021_Dec_01_1507,sentPlausibility,2021.2.3,60.05602029077241,
15,True,transitive,True,The girl tore her sweater.,0,27,27,14,,,,,,,,,,,,,,,,,,,,,,,,,,,,,,,,,,,,,,,,,170.94131809985265,None,169.95216419990174,170.95809179986827,y,1.4373861998319626,170.94131809985265,None,,,3,001,2021_Dec_01_1507,sentPlausibility,2021.2.3,60.05602029077241,
37,False,transitive,True,The guards exploded the bomb.,0,28,28,36,,,,,,,,,,,,,,,,,,,,,,,,,,,,,,,,,,,,,,,,,173.4061844998505,None,172.418981899973,173.42282169987448,n,1.6468829999212176,173.4061844998505,None,,,3,001,2021_Dec_01_1507,sentPlausibility,2021.2.3,60.05602029077241,
3,True,transitive,True,The leaves clogged the pipe.,0,29,29,2,,,,,,,,,,,,,,,,,,,,,,,,,,,,,,,,,,,,,,,,,176.0706319999881,None,175.08406909997575,176.0870864999015,y,1.4025034999940544,176.0706319999881,None,,,3,001,2021_Dec_01_1507,sentPlausibility,2021.2.3,60.05602029077241,
49,False,intransitive,True,The box opened after a short while.,0,30,30,48,,,,,,,,,,,,,,,,,,,,,,,,,,,,,,,,,,,,,,,,,178.5020619998686,None,177.51563080004416,178.51862629991956,y,1.3017570001538843,178.5020619998686,None,,,3,001,2021_Dec_01_1507,sentPlausibility,2021.2.3,60.05602029077241,
54,False,intransitive,False,The table poured over the wine.,0,31,31,53,,,,,,,,,,,,,,,,,,,,,,,,,,,,,,,,,,,,,,,,,180.8334262999706,None,179.846657600021,180.8499779999256,n,1.6077340000774711,180.8334262999706,None,,,3,001,2021_Dec_01_1507,sentPlausibility,2021.2.3,60.05602029077241,
25,True,intransitive,True,The shirt shrank in the wash.,0,32,32,24,,,,,,,,,,,,,,,,,,,,,,,,,,,,,,,,,,,,,,,,,183.46445139986463,None,182.47759989998303,183.4812528998591,n,1.5796602999325842,183.46445139986463,None,,,3,001,2021_Dec_01_1507,sentPlausibility,2021.2.3,60.05602029077241,
47,False,transitive,True,The cook boiled the soup.,0,33,33,46,,,,,,,,,,,,,,,,,,,,,,,,,,,,,,,,,,,,,,,,,186.06240259995684,None,185.07432499993593,186.0789316999726,y,1.16262389998883,186.06240259995684,None,,,3,001,2021_Dec_01_1507,sentPlausibility,2021.2.3,60.05602029077241,
22,True,intransitive,False,The street exploded in the bomb.,0,34,34,21,,,,,,,,,,,,,,,,,,,,,,,,,,,,,,,,,,,,,,,,,188.2440911999438,None,187.25887449993752,188.2606158000417,n,1.492684799944982,188.2440911999438,None,,,3,001,2021_Dec_01_1507,sentPlausibility,2021.2.3,60.05602029077241,
42,False,transitive,False,The shirt shrank the hot water.,0,35,35,41,,,,,,,,,,,,,,,,,,,,,,,,,,,,,,,,,,,,,,,,,190.7584056998603,None,189.77243159990758,190.77523240004666,n,1.3860760000534356,190.7584056998603,None,,,3,001,2021_Dec_01_1507,sentPlausibility,2021.2.3,60.05602029077241,
16,True,transitive,False,The sweater tore the girl.,0,36,36,15,,,,,,,,,,,,,,,,,,,,,,,,,,,,,,,,,,,,,,,,,193.17322420002893,None,192.1861097998917,193.1900020998437,n,1.2451172999572009,193.17322420002893,None,,,3,001,2021_Dec_01_1507,sentPlausibility,2021.2.3,60.05602029077241,
34,False,transitive,False,Flowers grow his parents on their balcony.,0,37,37,33,,,,,,,,,,,,,,,,,,,,,,,,,,,,,,,,,,,,,,,,,195.45488470001146,None,194.46275720000267,195.47148670000024,n,1.8685524000320584,195.45488470001146,None,,,3,001,2021_Dec_01_1507,sentPlausibility,2021.2.3,60.05602029077241,
1,True,transitive,True,The teacher opened the box. ,0,38,38,0,,,,,,,,,,,,,,,,,,,,,,,,,,,,,,,,,,,,,,,,,198.35247389995493,None,197.3672301999759,198.36892619985156,y,1.088905000127852,198.35247389995493,None,,,3,001,2021_Dec_01_1507,sentPlausibility,2021.2.3,60.05602029077241,
8,True,transitive,False,The sugar dissolved the baker.,0,39,39,7,,,,,,,,,,,,,,,,,,,,,,,,,,,,,,,,,,,,,,,,,200.46728079998866,None,199.47943870001473,200.48380769998766,n,1.2398089000489563,200.46728079998866,None,,,3,001,2021_Dec_01_1507,sentPlausibility,2021.2.3,60.05602029077241,
44,False,transitive,False,The cake crumbled the cook.,0,40,40,43,,,,,,,,,,,,,,,,,,,,,,,,,,,,,,,,,,,,,,,,,202.73207299993373,None,201.7442300999537,202.74875459983014,n,1.2089036998804659,202.73207299993373,None,,,3,001,2021_Dec_01_1507,sentPlausibility,2021.2.3,60.05602029077241,
13,True,transitive,True,The assistant shut the store.,0,41,41,12,,,,,,,,,,,,,,,,,,,,,,,,,,,,,,,,,,,,,,,,,204.96362479985692,None,203.9787546999287,204.98022049991414,y,1.2854871000163257,204.96362479985692,None,,,3,001,2021_Dec_01_1507,sentPlausibility,2021.2.3,60.05602029077241,
55,False,intransitive,True,The sugar dissolved in the milk.,0,42,42,54,,,,,,,,,,,,,,,,,,,,,,,,,,,,,,,,,,,,,,,,,207.27838929998688,None,206.29286119993776,207.29496439988725,y,1.2958368000108749,207.27838929998688,None,,,3,001,2021_Dec_01_1507,sentPlausibility,2021.2.3,60.05602029077241,
60,False,intransitive,False,The cook heated in the soup.,0,43,43,59,,,,,,,,,,,,,,,,,,,,,,,,,,,,,,,,,,,,,,,,,209.59311289992183,None,208.60741129983217,209.60968220001087,n,1.180602899985388,209.59311289992183,None,,,3,001,2021_Dec_01_1507,sentPlausibility,2021.2.3,60.05602029077241,
58,False,intransitive,False,The heat softened the butter.,0,44,44,57,,,,,,,,,,,,,,,,,,,,,,,,,,,,,,,,,,,,,,,,,211.79248529998586,None,210.8035476000514,211.80771859991364,y,1.6283060999121517,211.79248529998586,None,,,3,001,2021_Dec_01_1507,sentPlausibility,2021.2.3,60.05602029077241,
64,False,intransitive,False,The seams tore along the sweater.,0,45,45,63,,,,,,,,,,,,,,,,,,,,,,,,,,,,,,,,,,,,,,,,,214.45559609984048,None,213.45729579986073,214.47214179998264,n,1.379897000035271,214.45559609984048,None,,,3,001,2021_Dec_01_1507,sentPlausibility,2021.2.3,60.05602029077241,
57,False,intransitive,True,The butter softened in the heat.,0,46,46,56,,,,,,,,,,,,,,,,,,,,,,,,,,,,,,,,,,,,,,,,,216.85396529990248,None,215.86637059994973,216.87043130001985,n,1.212292700074613,216.85396529990248,None,,,3,001,2021_Dec_01_1507,sentPlausibility,2021.2.3,60.05602029077241,
39,False,transitive,True,The sun hardened the sand.,0,47,47,38,,,,,,,,,,,,,,,,,,,,,,,,,,,,,,,,,,,,,,,,,219.0852761999704,None,218.09912050003186,219.1017475000117,y,1.2281337999738753,219.0852761999704,None,,,3,001,2021_Dec_01_1507,sentPlausibility,2021.2.3,60.05602029077241,
53,False,intransitive,True,The wine poured over the table.,0,48,48,52,,,,,,,,,,,,,,,,,,,,,,,,,,,,,,,,,,,,,,,,,221.33353509986773,None,220.3474789999891,221.3500165999867,n,1.2700014000292867,221.33353509986773,None,,,3,001,2021_Dec_01_1507,sentPlausibility,2021.2.3,60.05602029077241,
51,False,intransitive,True,The pipe clogged after the rain.,0,49,49,50,,,,,,,,,,,,,,,,,,,,,,,,,,,,,,,,,,,,,,,,,223.63154339999892,None,222.64393719984218,223.64810339990072,y,1.5854577999562025,223.63154339999892,None,,,3,001,2021_Dec_01_1507,sentPlausibility,2021.2.3,60.05602029077241,
21,True,intransitive,True,The bomb exploded in the street.,0,50,50,20,,,,,,,,,,,,,,,,,,,,,,,,,,,,,,,,,,,,,,,,,226.24613359989598,None,225.25328359985724,226.26263480004855,y,1.421135799959302,226.24613359989598,None,,,3,001,2021_Dec_01_1507,sentPlausibility,2021.2.3,60.05602029077241,
29,True,intransitive,True,The balloon burst behind the boy.,0,51,51,28,,,,,,,,,,,,,,,,,,,,,,,,,,,,,,,,,,,,,,,,,228.69411799986847,None,227.70912469993345,228.71075049997307,y,1.332725399872288,228.69411799986847,None,,,3,001,2021_Dec_01_1507,sentPlausibility,2021.2.3,60.05602029077241,
9,True,transitive,True,The heat softened the butter.,0,52,52,8,,,,,,,,,,,,,,,,,,,,,,,,,,,,,,,,,,,,,,,,,231.04211200005375,None,230.05375989992172,231.05878039984964,y,1.2797026000916958,231.04211200005375,None,,,3,001,2021_Dec_01_1507,sentPlausibility,2021.2.3,60.05602029077241,
12,True,transitive,False,The soup heated the cook.,0,53,53,11,,,,,,,,,,,,,,,,,,,,,,,,,,,,,,,,,,,,,,,,,233.34016939997673,None,232.35239579994231,233.356765500037,n,1.1660152999684215,233.34016939997673,None,,,3,001,2021_Dec_01_1507,sentPlausibility,2021.2.3,60.05602029077241,
38,False,transitive,False,The bomb exploded the guards.,0,54,54,37,,,,,,,,,,,,,,,,,,,,,,,,,,,,,,,,,,,,,,,,,235.52190309995785,None,234.53818030003458,235.5384678998962,y,1.3192512998357415,235.52190309995785,None,,,3,001,2021_Dec_01_1507,sentPlausibility,2021.2.3,60.05602029077241,
28,True,intransitive,False,My hands crumbled in the cake.,0,55,55,27,,,,,,,,,,,,,,,,,,,,,,,,,,,,,,,,,,,,,,,,,237.88653469993733,None,236.8895054999739,237.9031471000053,n,1.54110709996894,237.88653469993733,None,,,3,001,2021_Dec_01_1507,sentPlausibility,2021.2.3,60.05602029077241,
43,False,transitive,True,The cook crumbled the cake.,0,56,56,42,,,,,,,,,,,,,,,,,,,,,,,,,,,,,,,,,,,,,,,,,240.4512095998507,None,239.46380889997818,240.46765739982948,y,1.4231491000391543,240.4512095998507,None,,,3,001,2021_Dec_01_1507,sentPlausibility,2021.2.3,60.05602029077241,
14,True,transitive,False,The store shut the assistant.,0,57,57,13,,,,,,,,,,,,,,,,,,,,,,,,,,,,,,,,,,,,,,,,,242.8990480999928,None,241.91269969986752,242.9156973999925,n,1.530371499946341,242.8990480999928,None,,,3,001,2021_Dec_01_1507,sentPlausibility,2021.2.3,60.05602029077241,
4,True,transitive,False,The pipe clogged the leaves.,0,58,58,3,,,,,,,,,,,,,,,,,,,,,,,,,,,,,,,,,,,,,,,,,245.44689089991152,None,244.45914569986053,245.4634475999046,n,1.1546129998750985,245.44689089991152,None,,,3,001,2021_Dec_01_1507,sentPlausibility,2021.2.3,60.05602029077241,
48,False,transitive,False,The soup boiled the cook.,0,59,59,47,,,,,,,,,,,,,,,,,,,,,,,,,,,,,,,,,,,,,,,,,247.628362899879,None,246.6394688000437,247.64501310000196,n,1.2850385999772698,247.628362899879,None,,,3,001,2021_Dec_01_1507,sentPlausibility,2021.2.3,60.05602029077241,
27,True,intransitive,True,The cake crumbled in my hands.,0,60,60,26,,,,,,,,,,,,,,,,,,,,,,,,,,,,,,,,,,,,,,,,,249.9432035998907,None,248.95835289987735,249.95972759998403,y,1.3058766999747604,249.9432035998907,None,,,3,001,2021_Dec_01_1507,sentPlausibility,2021.2.3,60.05602029077241,
32,True,intransitive,False,The cook boiled in the pot.,0,61,61,31,,,,,,,,,,,,,,,,,,,,,,,,,,,,,,,,,,,,,,,,,252.2747694000136,None,251.28787459991872,252.29127070005052,n,1.1675742999650538,252.2747694000136,None,,,3,001,2021_Dec_01_1507,sentPlausibility,2021.2.3,60.05602029077241,
17,True,intransitive,True,The flowers grew in clusters.,0,62,62,16,,,,,,,,,,,,,,,,,,,,,,,,,,,,,,,,,,,,,,,,,254.4728616999928,None,253.4848090999294,254.48950999998488,y,1.2663434999994934,254.4728616999928,None,,,3,001,2021_Dec_01_1507,sentPlausibility,2021.2.3,60.05602029077241,
50,False,intransitive,False,The teacher opened after a short while.,0,63,63,49,,,,,,,,,,,,,,,,,,,,,,,,,,,,,,,,,,,,,,,,,256.7544106000569,None,255.77135950000957,256.7710718999151,n,1.3172131997998804,256.7544106000569,None,,,3,001,2021_Dec_01_1507,sentPlausibility,2021.2.3,60.05602029077241,
,,,,,,,,,,,,,,,,,,,,,,,,,,,,,,,,,,,,,,,,,,,,,,,,,,,,,,,,,258.0887925999705,None,,,,,,,
