sentenceID,isConcordant,sentenceType,isPlausible,sentenceContent,sentenceLoop.thisRepN,sentenceLoop.thisTrialN,sentenceLoop.thisN,sentenceLoop.thisIndex,instr.started,instr.stopped,confirm.keys,confirm.rt,confirm.started,confirm.stopped,isNative.started,isNative.stopped,isNativeResp.keys,isNativeResp.rt,isNativeResp.started,isNativeResp.stopped,hasReadProb.started,hasReadProb.stopped,hasReadProbResp.keys,hasReadProbResp.rt,hasReadProbResp.started,hasReadProbResp.stopped,text.started,text.stopped,text_2.started,text_2.stopped,practice1Cross.started,practice1Cross.stopped,practice1Text.started,practice1Text.stopped,practice1Resp.keys,practice1Resp.rt,practice1Resp.started,practice1Resp.stopped,feedback1Text.started,feedback1Text.stopped,feedback1Blank.started,feedback1Blank.stopped,practice2Cross.started,practice2Cross.stopped,practice2Text.started,practice2Text.stopped,practice2Resp.keys,practice2Resp.rt,practice2Resp.started,practice2Resp.stopped,feedback2Text.started,feedback2Text.stopped,feedback2Blank.started,feedback2Blank.stopped,sentence.started,sentence.stopped,fixationCross.started,fixationCross.stopped,sentenceResp.keys,sentenceResp.rt,sentenceResp.started,sentenceResp.stopped,participant,session,date,expName,psychopyVersion,frameRate,
,,,,,,,,,12.299887900007889,None,y,15.491228300146759,12.299887900007889,None,,,,,,,,,,,,,,,,,,,,,,,,,,,,,,,,,,,,,,,,,,,,,,,,,,001,2021_Nov_26_1312,sentPlausibility,2021.2.3,60.12372260054307,
,,,,,,,,,,,,,,,27.816124100005254,None,n,2.4949803999625146,27.816124100005254,None,,,,,,,,,,,,,,,,,,,,,,,,,,,,,,,,,,,,,,,,,,,,001,2021_Nov_26_1312,sentPlausibility,2021.2.3,60.12372260054307,
,,,,,,,,,,,,,,,,,,,,,30.338448399910703,None,n,4.871742099989206,30.338448399910703,None,,,,,,,,,,,,,,,,,,,,,,,,,,,,,,,,,,,,,,001,2021_Nov_26_1312,sentPlausibility,2021.2.3,60.12372260054307,
,,,,,,,,,,,,,,,,,,,,,,,,,,,35.23433919996023,40.24629670009017,40.21350389998406,None,43.22716200002469,44.22662239987403,44.21004939987324,None,y,1.610910200048238,44.21004939987324,None,,,,,,,,,,,,,,,,,,,,,,,,,,001,2021_Nov_26_1312,sentPlausibility,2021.2.3,60.12372260054307,
,,,,,,,,,,,,,,,,,,,,,,,,,,,,,,,,,,,,,,,45.87192659988068,50.87083190004341,50.85490779997781,None,53.86841859994456,54.867932100081816,54.85128040006384,None,n,1.3207656999584287,54.85128040006384,None,,,,,,,,,,,,,,001,2021_Nov_26_1312,sentPlausibility,2021.2.3,60.12372260054307,
4,True,transitive,False,The pipe clogged the leaves.,0,0,0,3,,,,,,,,,,,,,,,,,,,,,,,,,,,,,,,,,,,,,,,,,,,56.22974639991298,61.229009199887514,61.213321999879554,None,65.27611569990404,None,64.29258090001531,65.2927107999567,n,1.5022128999698907,65.27611569990404,None,,001,2021_Nov_26_1312,sentPlausibility,2021.2.3,60.12372260054307,
22,True,intransitive,False,The street exploded in the bomb.,0,1,1,21,,,,,,,,,,,,,,,,,,,,,,,,,,,,,,,,,,,,,,,,,,,,,,,67.80731549998745,None,66.82234230008908,67.82399210007861,n,1.581387999933213,67.80731549998745,None,,001,2021_Nov_26_1312,sentPlausibility,2021.2.3,60.12372260054307,
17,True,intransitive,True,The flowers grew in clusters.,0,2,2,16,,,,,,,,,,,,,,,,,,,,,,,,,,,,,,,,,,,,,,,,,,,,,,,70.40524969995022,None,69.42085230001248,70.4219684000127,y,1.3316683999728411,70.40524969995022,None,,001,2021_Nov_26_1312,sentPlausibility,2021.2.3,60.12372260054307,
60,False,intransitive,False,The cook heated in the soup.,0,3,3,59,,,,,,,,,,,,,,,,,,,,,,,,,,,,,,,,,,,,,,,,,,,,,,,72.75321380002424,None,71.76824210002087,72.76978109986521,n,1.8540413998998702,72.75321380002424,None,,001,2021_Nov_26_1312,sentPlausibility,2021.2.3,60.12372260054307,
27,True,intransitive,True,The cake crumbled in my hands.,0,4,4,26,,,,,,,,,,,,,,,,,,,,,,,,,,,,,,,,,,,,,,,,,,,,,,,75.63433740008622,None,74.6504023000598,75.65098299994133,y,1.7028716001659632,75.63433740008622,None,,001,2021_Nov_26_1312,sentPlausibility,2021.2.3,60.12372260054307,
63,False,intransitive,True,The sweater tore along the seams.,0,5,5,62,,,,,,,,,,,,,,,,,,,,,,,,,,,,,,,,,,,,,,,,,,,,,,,78.38193110004067,80.8961438999977,77.38330290000886,78.39842489990406,y,3.148448499850929,78.38193110004067,None,,001,2021_Nov_26_1312,sentPlausibility,2021.2.3,60.12372260054307,
14,True,transitive,False,The store shut the assistant.,0,6,6,13,,,,,,,,,,,,,,,,,,,,,,,,,,,,,,,,,,,,,,,,,,,,,,,82.54528379999101,None,81.56046220008284,82.56188370008022,n,1.9247284999582916,82.54528379999101,None,,001,2021_Nov_26_1312,sentPlausibility,2021.2.3,60.12372260054307,
31,True,intransitive,True,The soup boiled in the pot.,0,7,7,30,,,,,,,,,,,,,,,,,,,,,,,,,,,,,,,,,,,,,,,,,,,,,,,85.4926783000119,None,84.50697249989025,85.5094147999771,y,1.3099853999447078,85.4926783000119,None,,001,2021_Nov_26_1312,sentPlausibility,2021.2.3,60.12372260054307,
34,False,transitive,False,Flowers grow his parents on their balcony.,0,8,8,33,,,,,,,,,,,,,,,,,,,,,,,,,,,,,,,,,,,,,,,,,,,,,,,87.84097560006194,None,86.84658310003579,87.85762230004184,n,1.440645899856463,87.84097560006194,None,,001,2021_Nov_26_1312,sentPlausibility,2021.2.3,60.12372260054307,
57,False,intransitive,True,The butter softened in the heat.,0,9,9,56,,,,,,,,,,,,,,,,,,,,,,,,,,,,,,,,,,,,,,,,,,,,,,,90.3056725000497,None,89.31895179999992,90.32228620001115,y,1.412813600152731,90.3056725000497,None,,001,2021_Nov_26_1312,sentPlausibility,2021.2.3,60.12372260054307,
13,True,transitive,True,The assistant shut the store.,0,10,10,12,,,,,,,,,,,,,,,,,,,,,,,,,,,,,,,,,,,,,,,,,,,,,,,92.73674239986576,95.25094359996729,91.7507380999159,92.75352060003206,None,,92.73674239986576,None,,001,2021_Nov_26_1312,sentPlausibility,2021.2.3,60.12372260054307,
3,True,transitive,True,The leaves clogged the pipe.,0,11,11,2,,,,,,,,,,,,,,,,,,,,,,,,,,,,,,,,,,,,,,,,,,,,,,,97.74947919999249,None,96.76036329986528,97.76599920005538,y,2.099340199958533,97.74947919999249,96.76036329986528,,001,2021_Nov_26_1312,sentPlausibility,2021.2.3,60.12372260054307,
35,False,transitive,True,The waves sank the boat.,0,12,12,34,,,,,,,,,,,,,,,,,,,,,,,,,,,,,,,,,,,,,,,,,,,,,,,100.86343450006098,103.37757069990039,99.87624639994465,100.8799594999291,None,,100.86343450006098,None,,001,2021_Nov_26_1312,sentPlausibility,2021.2.3,60.12372260054307,
18,True,intransitive,False,The clusters grew in the flowers.,0,13,13,17,,,,,,,,,,,,,,,,,,,,,,,,,,,,,,,,,,,,,,,,,,,,,,,105.87604349991307,None,104.89024479989894,105.89265779987909,y,2.2672003000043333,105.87604349991307,104.89024479989894,,001,2021_Nov_26_1312,sentPlausibility,2021.2.3,60.12372260054307,
20,True,intransitive,False,The storm sank in the boat.,0,14,14,19,,,,,,,,,,,,,,,,,,,,,,,,,,,,,,,,,,,,,,,,,,,,,,,109.17325400002301,None,108.18611339991912,109.18990950006992,y,1.4974177000112832,109.17325400002301,None,,001,2021_Nov_26_1312,sentPlausibility,2021.2.3,60.12372260054307,
39,False,transitive,True,The sun hardened the sand.,0,15,15,38,,,,,,,,,,,,,,,,,,,,,,,,,,,,,,,,,,,,,,,,,,,,,,,111.68798689986579,None,110.70145320007578,111.7047502999194,y,1.5569973001256585,111.68798689986579,None,,001,2021_Nov_26_1312,sentPlausibility,2021.2.3,60.12372260054307,
36,False,transitive,False,The boat sank the waves.,0,16,16,35,,,,,,,,,,,,,,,,,,,,,,,,,,,,,,,,,,,,,,,,,,,,,,,114.26910690008663,116.78333880007267,113.28289499995299,114.28562249988317,None,,114.26910690008663,None,,001,2021_Nov_26_1312,sentPlausibility,2021.2.3,60.12372260054307,
38,False,transitive,False,The bomb exploded the guards.,0,17,17,37,,,,,,,,,,,,,,,,,,,,,,,,,,,,,,,,,,,,,,,,,,,,,,,119.28173839999363,121.7958621000871,118.29434509994462,119.29837019997649,None,,119.28173839999363,118.29434509994462,,001,2021_Nov_26_1312,sentPlausibility,2021.2.3,60.12372260054307,
5,True,transitive,True,The waiter poured the wine.,0,18,18,4,,,,,,,,,,,,,,,,,,,,,,,,,,,,,,,,,,,,,,,,,,,,,,,124.29407180007547,126.80842830007896,123.30686639994383,124.31077819992788,None,,124.29407180007547,123.30686639994383,,001,2021_Nov_26_1312,sentPlausibility,2021.2.3,60.12372260054307,
54,False,intransitive,False,The table poured over the wine.,0,19,19,53,,,,,,,,,,,,,,,,,,,,,,,,,,,,,,,,,,,,,,,,,,,,,,,129.30697839986533,131.82098530000076,128.31939719989896,129.32338179997168,None,,129.30697839986533,128.31939719989896,,001,2021_Nov_26_1312,sentPlausibility,2021.2.3,60.12372260054307,
42,False,transitive,False,The shirt shrank the hot water.,0,20,20,41,,,,,,,,,,,,,,,,,,,,,,,,,,,,,,,,,,,,,,,,,,,,,,,134.31924819992855,136.833544800058,133.33099150005728,134.33600950008258,None,,134.31924819992855,133.33099150005728,,001,2021_Nov_26_1312,sentPlausibility,2021.2.3,60.12372260054307,
21,True,intransitive,True,The bomb exploded in the street.,0,21,21,20,,,,,,,,,,,,,,,,,,,,,,,,,,,,,,,,,,,,,,,,,,,,,,,139.33199039986357,141.84615219989792,138.34452089993283,139.34842090005986,None,,139.33199039986357,138.34452089993283,,001,2021_Nov_26_1312,sentPlausibility,2021.2.3,60.12372260054307,
59,False,intransitive,True,The soup heated in the pot.,0,22,22,58,,,,,,,,,,,,,,,,,,,,,,,,,,,,,,,,,,,,,,,,,,,,,,,144.34424189990386,146.85842449986376,143.35682619991712,144.36088280007243,None,,144.34424189990386,143.35682619991712,,001,2021_Nov_26_1312,sentPlausibility,2021.2.3,60.12372260054307,
51,False,intransitive,True,The pipe clogged after the rain.,0,23,23,50,,,,,,,,,,,,,,,,,,,,,,,,,,,,,,,,,,,,,,,,,,,,,,,149.35695370007306,151.87128169997595,148.36853229999542,149.3734452999197,None,,149.35695370007306,148.36853229999542,,001,2021_Nov_26_1312,sentPlausibility,2021.2.3,60.12372260054307,
48,False,transitive,False,The soup boiled the cook.,0,24,24,47,,,,,,,,,,,,,,,,,,,,,,,,,,,,,,,,,,,,,,,,,,,,,,,154.36933119990863,156.88361750007607,153.38107610004954,154.38597070006654,None,,154.36933119990863,153.38107610004954,,001,2021_Nov_26_1312,sentPlausibility,2021.2.3,60.12372260054307,
11,True,transitive,True,The cook heated the soup.,0,25,25,10,,,,,,,,,,,,,,,,,,,,,,,,,,,,,,,,,,,,,,,,,,,,,,,159.38194509991445,161.89628500002436,158.39109060005285,159.39864529995248,None,,159.38194509991445,158.39109060005285,,001,2021_Nov_26_1312,sentPlausibility,2021.2.3,60.12372260054307,
55,False,intransitive,True,The sugar dissolved in the milk.,0,26,26,54,,,,,,,,,,,,,,,,,,,,,,,,,,,,,,,,,,,,,,,,,,,,,,,164.39454689994454,None,163.4081985000521,164.4113020999357,y,1.1632858000230044,164.39454689994454,163.4081985000521,,001,2021_Nov_26_1312,sentPlausibility,2021.2.3,60.12372260054307,
45,False,transitive,True,The boy burst the balloon.,0,27,27,44,,,,,,,,,,,,,,,,,,,,,,,,,,,,,,,,,,,,,,,,,,,,,,,166.57595809991471,169.0903787999414,165.58967910008505,166.5926363999024,None,,166.57595809991471,None,,001,2021_Nov_26_1312,sentPlausibility,2021.2.3,60.12372260054307,
16,True,transitive,False,The sweater tore the girl.,0,28,28,15,,,,,,,,,,,,,,,,,,,,,,,,,,,,,,,,,,,,,,,,,,,,,,,171.58825560007244,174.10266519989818,170.59884109999985,171.604939899873,None,,171.58825560007244,170.59884109999985,,001,2021_Nov_26_1312,sentPlausibility,2021.2.3,60.12372260054307,
19,True,intransitive,True,The boat sank in the storm.,0,29,29,18,,,,,,,,,,,,,,,,,,,,,,,,,,,,,,,,,,,,,,,,,,,,,,,176.6012200000696,179.11544679990038,175.61211430002004,176.61778969992884,None,,176.6012200000696,175.61211430002004,,001,2021_Nov_26_1312,sentPlausibility,2021.2.3,60.12372260054307,
40,False,transitive,False,The sand hardened the sun.,0,30,30,39,,,,,,,,,,,,,,,,,,,,,,,,,,,,,,,,,,,,,,,,,,,,,,,181.6139406999573,184.1279756000731,180.626359899994,181.6304317000322,None,,181.6139406999573,180.626359899994,,001,2021_Nov_26_1312,sentPlausibility,2021.2.3,60.12372260054307,
23,True,intransitive,True,The concrete hardened in the sun.,0,31,31,22,,,,,,,,,,,,,,,,,,,,,,,,,,,,,,,,,,,,,,,,,,,,,,,186.62641869997606,189.14061170001514,185.63706029998139,186.6429812000133,None,,186.62641869997606,185.63706029998139,,001,2021_Nov_26_1312,sentPlausibility,2021.2.3,60.12372260054307,
12,True,transitive,False,The soup heated the cook.,0,32,32,11,,,,,,,,,,,,,,,,,,,,,,,,,,,,,,,,,,,,,,,,,,,,,,,191.63866119994782,194.15305899991654,190.64837699988857,191.65538830007426,None,,191.63866119994782,190.64837699988857,,001,2021_Nov_26_1312,sentPlausibility,2021.2.3,60.12372260054307,
15,True,transitive,True,The girl tore her sweater.,0,33,33,14,,,,,,,,,,,,,,,,,,,,,,,,,,,,,,,,,,,,,,,,,,,,,,,196.65121629997157,199.16552500007674,195.66058639995754,196.66798670007847,None,,196.65121629997157,195.66058639995754,,001,2021_Nov_26_1312,sentPlausibility,2021.2.3,60.12372260054307,
