sentenceID,isConcordant,sentenceType,isPlausible,sentenceContent,sentenceLoop.thisRepN,sentenceLoop.thisTrialN,sentenceLoop.thisN,sentenceLoop.thisIndex,instr.started,instr.stopped,confirm.keys,confirm.rt,confirm.started,confirm.stopped,isNative.started,isNative.stopped,isNativeResp.keys,isNativeResp.rt,isNativeResp.started,isNativeResp.stopped,text.started,text.stopped,text_2.started,text_2.stopped,practice1Cross.started,practice1Cross.stopped,practice1Text.started,practice1Text.stopped,practice1Resp.keys,practice1Resp.rt,practice1Resp.started,practice1Resp.stopped,feedback1Text.started,feedback1Text.stopped,feedback1Blank.started,feedback1Blank.stopped,practice2Cross.started,practice2Cross.stopped,practice2Text.started,practice2Text.stopped,practice2Resp.keys,practice2Resp.rt,practice2Resp.started,practice2Resp.stopped,feedback2Text.started,feedback2Text.stopped,feedback2Blank.started,feedback2Blank.stopped,sentence.started,sentence.stopped,fixationCross.started,fixationCross.stopped,sentenceResp.keys,sentenceResp.rt,sentenceResp.started,sentenceResp.stopped,debriefText.started,debriefText.stopped,participant,session,date,expName,psychopyVersion,frameRate,
,,,,,,,,,9.81844830000773,None,y,38.84747969999444,9.81844830000773,None,,,,,,,,,,,,,,,,,,,,,,,,,,,,,,,,,,,,,,,,,,,,,,001,2021_Nov_25_1023,sentPlausibility,2021.2.3,60.04311097439041,
,,,,,,,,,,,,,,,48.691992100095376,None,y,3.605342800030485,48.691992100095376,None,,,,,,,,,,,,,,,,,,,,,,,,,,,,,,,,,,,,,,,,001,2021_Nov_25_1023,sentPlausibility,2021.2.3,60.04311097439041,
,,,,,,,,,,,,,,,,,,,,,52.32108270004392,57.32548920006957,57.30916870001238,None,60.31194120005239,61.31327969999984,61.296639800071716,None,y,2.3205782000441104,61.296639800071716,None,,,,,,,,,,,,,,,,,,,,,,,,,,,,001,2021_Nov_25_1023,sentPlausibility,2021.2.3,60.04311097439041,
,,,,,,,,,,,,,,,,,,,,,,,,,,,,,,,,,63.662246600026265,68.67030760005582,68.654244900099,None,71.65624480007682,72.65783390006982,72.64121530007105,None,n,2.1916362000629306,72.64121530007105,None,,,,,,,,,,,,,,,,001,2021_Nov_25_1023,sentPlausibility,2021.2.3,60.04311097439041,
44,False,transitive,False,The cake crumbled the cook.,0,0,0,43,,,,,,,,,,,,,,,,,,,,,,,,,,,,,,,,,,,,,74.87354400008917,79.88140880002175,79.86560510005802,None,83.90228450007271,86.40460870007519,82.91243130003568,83.9189222001005,n,3.1870742000173777,83.90228450007271,None,,,,001,2021_Nov_25_1023,sentPlausibility,2021.2.3,60.04311097439041,
48,False,transitive,False,The soup boiled the cook.,0,1,1,47,,,,,,,,,,,,,,,,,,,,,,,,,,,,,,,,,,,,,,,,,88.10669970000163,None,87.1202066000551,88.12337869999465,n,1.6225862000137568,88.10669970000163,None,,,,001,2021_Nov_25_1023,sentPlausibility,2021.2.3,60.04311097439041,
2,True,transitive,False,The box opened the teacher.,0,2,2,1,,,,,,,,,,,,,,,,,,,,,,,,,,,,,,,,,,,,,,,,,90.75933520006947,None,89.7658377001062,90.77592510008253,n,1.6737365000881255,90.75933520006947,None,,,,001,2021_Nov_25_1023,sentPlausibility,2021.2.3,60.04311097439041,
52,False,intransitive,False,The leaves clogged after the rain.,0,3,3,51,,,,,,,,,,,,,,,,,,,,,,,,,,,,,,,,,,,,,,,,,93.44537840003613,None,92.46804920001887,93.4785449000774,n,2.395969499950297,93.44537840003613,None,,,,001,2021_Nov_25_1023,sentPlausibility,2021.2.3,60.04311097439041,
26,True,intransitive,False,The wash shrank in the shirt.,0,4,4,25,,,,,,,,,,,,,,,,,,,,,,,,,,,,,,,,,,,,,,,,,96.86547850002535,None,95.86964010004885,96.882163100061,n,2.311969200032763,96.86547850002535,None,,,,001,2021_Nov_25_1023,sentPlausibility,2021.2.3,60.04311097439041,
42,False,transitive,False,The shirt shrank the hot water.,0,5,5,41,,,,,,,,,,,,,,,,,,,,,,,,,,,,,,,,,,,,,,,,,100.20204630005173,None,99.20524250005838,100.21863840008155,n,2.2713201000588015,100.20204630005173,None,,,,001,2021_Nov_25_1023,sentPlausibility,2021.2.3,60.04311097439041,
20,True,intransitive,False,The storm sank in the boat.,0,6,6,19,,,,,,,,,,,,,,,,,,,,,,,,,,,,,,,,,,,,,,,,,103.50527600001078,None,102.50996120006312,103.52207810000982,n,1.807576599996537,103.50527600001078,None,,,,001,2021_Nov_25_1023,sentPlausibility,2021.2.3,60.04311097439041,
29,True,intransitive,True,The balloon burst behind the boy.,0,7,7,28,,,,,,,,,,,,,,,,,,,,,,,,,,,,,,,,,,,,,,,,,106.3415555000538,None,105.34139620000497,106.3415555000538,n,1.4917149000102654,106.3415555000538,None,,,,001,2021_Nov_25_1023,sentPlausibility,2021.2.3,60.04311097439041,
30,True,intransitive,False,The boy burst behind the balloon.,0,8,8,29,,,,,,,,,,,,,,,,,,,,,,,,,,,,,,,,,,,,,,,,,108.84410470002331,None,107.86690600006841,108.87745800008997,n,1.524872099980712,108.84410470002331,None,,,,001,2021_Nov_25_1023,sentPlausibility,2021.2.3,60.04311097439041,
32,True,intransitive,False,The cook boiled in the pot.,0,9,9,31,,,,,,,,,,,,,,,,,,,,,,,,,,,,,,,,,,,,,,,,,111.39655080006924,None,110.39868870005012,111.41321100003552,n,2.0206880000187084,111.39655080006924,None,,,,001,2021_Nov_25_1023,sentPlausibility,2021.2.3,60.04311097439041,
9,True,transitive,True,The heat softened the butter.,0,10,10,8,,,,,,,,,,,,,,,,,,,,,,,,,,,,,,,,,,,,,,,,,114.44956870004535,None,113.45245470001828,114.46623950009234,y,2.391362200025469,114.44956870004535,None,,,,001,2021_Nov_25_1023,sentPlausibility,2021.2.3,60.04311097439041,
47,False,transitive,True,The cook boiled the soup.,0,11,11,46,,,,,,,,,,,,,,,,,,,,,,,,,,,,,,,,,,,,,,,,,117.86967780010309,None,116.8712309000548,117.88636240002234,y,1.9555248999968171,117.86967780010309,None,,,,001,2021_Nov_25_1023,sentPlausibility,2021.2.3,60.04311097439041,
6,True,transitive,False,The wine poured the waiter.,0,12,12,5,,,,,,,,,,,,,,,,,,,,,,,,,,,,,,,,,,,,,,,,,120.85599710000679,None,119.8557857000269,120.85599710000679,n,1.785218899953179,120.85599710000679,None,,,,001,2021_Nov_25_1023,sentPlausibility,2021.2.3,60.04311097439041,
38,False,transitive,False,The bomb exploded the guards.,0,13,13,37,,,,,,,,,,,,,,,,,,,,,,,,,,,,,,,,,,,,,,,,,123.64209170010872,None,122.66453990002628,123.6753761,n,2.0390316999983042,123.64209170010872,None,,,,001,2021_Nov_25_1023,sentPlausibility,2021.2.3,60.04311097439041,
22,True,intransitive,False,The street exploded in the bomb.,0,14,14,21,,,,,,,,,,,,,,,,,,,,,,,,,,,,,,,,,,,,,,,,,126.71165280009154,None,125.72132060001604,126.72850780002773,n,1.8499798000557348,126.71165280009154,None,,,,001,2021_Nov_25_1023,sentPlausibility,2021.2.3,60.04311097439041,
61,False,intransitive,True,The store shut at six o’clock.,0,15,15,60,,,,,,,,,,,,,,,,,,,,,,,,,,,,,,,,,,,,,,,,,129.59781740000471,None,128.5960550000891,129.59781740000471,y,1.5634731000754982,129.59781740000471,None,,,,001,2021_Nov_25_1023,sentPlausibility,2021.2.3,60.04311097439041,
3,True,transitive,True,The leaves clogged the pipe.,0,16,16,2,,,,,,,,,,,,,,,,,,,,,,,,,,,,,,,,,,,,,,,,,132.18399640009739,None,131.1881626000395,132.20064220007043,y,1.216918999911286,132.18399640009739,None,,,,001,2021_Nov_25_1023,sentPlausibility,2021.2.3,60.04311097439041,
54,False,intransitive,False,The table poured over the wine.,0,17,17,53,,,,,,,,,,,,,,,,,,,,,,,,,,,,,,,,,,,,,,,,,134.41963930008933,None,133.42373570008203,134.43630230007693,n,1.5732272000750527,134.41963930008933,None,,,,001,2021_Nov_25_1023,sentPlausibility,2021.2.3,60.04311097439041,
49,False,intransitive,True,The box opened after a short while.,0,18,18,48,,,,,,,,,,,,,,,,,,,,,,,,,,,,,,,,,,,,,,,,,137.02196870010812,None,136.0341250000056,137.03862790006679,y,1.5551079999422655,137.02196870010812,None,,,,001,2021_Nov_25_1023,sentPlausibility,2021.2.3,60.04311097439041,
18,True,intransitive,False,The clusters grew in the flowers.,0,19,19,17,,,,,,,,,,,,,,,,,,,,,,,,,,,,,,,,,,,,,,,,,139.5911206000019,None,138.61318280000705,139.62459480005782,n,1.7623856000136584,139.5911206000019,None,,,,001,2021_Nov_25_1023,sentPlausibility,2021.2.3,60.04311097439041,
39,False,transitive,True,The sun hardened the sand.,0,20,20,38,,,,,,,,,,,,,,,,,,,,,,,,,,,,,,,,,,,,,,,,,142.37749890005216,None,141.3834296000423,142.39417119999416,y,1.5118937999941409,142.37749890005216,None,,,,001,2021_Nov_25_1023,sentPlausibility,2021.2.3,60.04311097439041,
43,False,transitive,True,The cook crumbled the cake.,0,21,21,42,,,,,,,,,,,,,,,,,,,,,,,,,,,,,,,,,,,,,,,,,144.91335160005838,None,143.92086740001105,144.93002110009547,y,1.9280675000045449,144.91335160005838,None,,,,001,2021_Nov_25_1023,sentPlausibility,2021.2.3,60.04311097439041,
56,False,intransitive,False,The baker dissolved in the milk.,0,22,22,55,,,,,,,,,,,,,,,,,,,,,,,,,,,,,,,,,,,,,,,,,147.86633310001343,None,146.87341680005193,147.88304520002566,n,1.7828143000369892,147.86633310001343,None,,,,001,2021_Nov_25_1023,sentPlausibility,2021.2.3,60.04311097439041,
59,False,intransitive,True,The soup heated in the pot.,0,23,23,58,,,,,,,,,,,,,,,,,,,,,,,,,,,,,,,,,,,,,,,,,150.66913400008343,153.17100269999355,149.66975830006413,150.66913400008343,y,2.6198459999868646,150.66913400008343,None,,,,001,2021_Nov_25_1023,sentPlausibility,2021.2.3,60.04311097439041,
17,True,intransitive,True,The flowers grew in clusters.,0,24,24,16,,,,,,,,,,,,,,,,,,,,,,,,,,,,,,,,,,,,,,,,,154.3060135000851,None,153.30764340003952,154.3226812001085,y,1.5832572999643162,154.3060135000851,None,,,,001,2021_Nov_25_1023,sentPlausibility,2021.2.3,60.04311097439041,
37,False,transitive,True,The guards exploded the bomb.,0,25,25,36,,,,,,,,,,,,,,,,,,,,,,,,,,,,,,,,,,,,,,,,,156.9087604000233,None,155.92081999999937,156.92544250003994,y,1.6605181000195444,156.9087604000233,None,,,,001,2021_Nov_25_1023,sentPlausibility,2021.2.3,60.04311097439041,
8,True,transitive,False,The sugar dissolved the baker.,0,26,26,7,,,,,,,,,,,,,,,,,,,,,,,,,,,,,,,,,,,,,,,,,159.59468130010646,None,158.6004109000787,159.61139070009813,n,1.9828066000482067,159.59468130010646,None,,,,001,2021_Nov_25_1023,sentPlausibility,2021.2.3,60.04311097439041,
16,True,transitive,False,The sweater tore the girl.,0,27,27,15,,,,,,,,,,,,,,,,,,,,,,,,,,,,,,,,,,,,,,,,,162.597570400103,None,161.60207780008204,162.6142693000147,n,1.7636943999677896,162.597570400103,None,,,,001,2021_Nov_25_1023,sentPlausibility,2021.2.3,60.04311097439041,
46,False,transitive,False,The balloon burst the boy.,0,28,28,45,,,,,,,,,,,,,,,,,,,,,,,,,,,,,,,,,,,,,,,,,165.38381620007567,None,164.38757660007104,165.40043810009956,n,1.505416400032118,165.38381620007567,None,,,,001,2021_Nov_25_1023,sentPlausibility,2021.2.3,60.04311097439041,
11,True,transitive,True,The cook heated the soup.,0,29,29,10,,,,,,,,,,,,,,,,,,,,,,,,,,,,,,,,,,,,,,,,,167.90301760006696,None,166.92583260009997,167.9363101000199,y,1.210343899903819,167.90301760006696,None,,,,001,2021_Nov_25_1023,sentPlausibility,2021.2.3,60.04311097439041,
7,True,transitive,True,The baker dissolved the sugar.,0,30,30,6,,,,,,,,,,,,,,,,,,,,,,,,,,,,,,,,,,,,,,,,,170.12190250004642,None,169.14502890000585,170.15521300002,y,1.3828988999594003,170.12190250004642,None,,,,001,2021_Nov_25_1023,sentPlausibility,2021.2.3,60.04311097439041,
4,True,transitive,False,The pipe clogged the leaves.,0,31,31,3,,,,,,,,,,,,,,,,,,,,,,,,,,,,,,,,,,,,,,,,,172.52408000000287,None,171.52452190010808,172.52408000000287,n,1.6131938999751583,172.52408000000287,None,,,,001,2021_Nov_25_1023,sentPlausibility,2021.2.3,60.04311097439041,
15,True,transitive,True,The girl tore her sweater.,0,32,32,14,,,,,,,,,,,,,,,,,,,,,,,,,,,,,,,,,,,,,,,,,175.1602292000316,None,174.16418439999688,175.17668770009186,y,1.7691341999452561,175.1602292000316,None,,,,001,2021_Nov_25_1023,sentPlausibility,2021.2.3,60.04311097439041,
33,False,transitive,True,His parents grow flowers on their balcony.,0,33,33,32,,,,,,,,,,,,,,,,,,,,,,,,,,,,,,,,,,,,,,,,,177.94648600008804,None,176.95587300008629,177.96321810001973,y,2.006547400029376,177.94648600008804,None,,,,001,2021_Nov_25_1023,sentPlausibility,2021.2.3,60.04311097439041,
25,True,intransitive,True,The shirt shrank in the wash.,0,34,34,24,,,,,,,,,,,,,,,,,,,,,,,,,,,,,,,,,,,,,,,,,180.96606410003733,None,179.98768420005217,180.999363000039,n,1.8112354999175295,180.96606410003733,None,,,,001,2021_Nov_25_1023,sentPlausibility,2021.2.3,60.04311097439041,
63,False,intransitive,True,The sweater tore along the seams.,0,35,35,62,,,,,,,,,,,,,,,,,,,,,,,,,,,,,,,,,,,,,,,,,183.80234160006512,None,182.80837550002616,183.81891080003697,y,1.7269921998959035,183.80234160006512,None,,,,001,2021_Nov_25_1023,sentPlausibility,2021.2.3,60.04311097439041,
53,False,intransitive,True,The wine poured over the table.,0,36,36,52,,,,,,,,,,,,,,,,,,,,,,,,,,,,,,,,,,,,,,,,,186.55496710003354,None,185.5635882000206,186.57159490010235,y,1.7664974000072107,186.55496710003354,None,,,,001,2021_Nov_25_1023,sentPlausibility,2021.2.3,60.04311097439041,
51,False,intransitive,True,The pipe clogged after the rain.,0,37,37,50,,,,,,,,,,,,,,,,,,,,,,,,,,,,,,,,,,,,,,,,,189.34117540006991,191.84325570007786,188.3483497000998,189.3577908000443,None,,189.34117540006991,None,,,,001,2021_Nov_25_1023,sentPlausibility,2021.2.3,60.04311097439041,
12,True,transitive,False,The soup heated the cook.,0,38,38,11,,,,,,,,,,,,,,,,,,,,,,,,,,,,,,,,,,,,,,,,,194.82993070001248,None,193.8516000000527,194.8632541000843,n,1.6192098000319675,194.82993070001248,193.8516000000527,,,,001,2021_Nov_25_1023,sentPlausibility,2021.2.3,60.04311097439041,
36,False,transitive,False,The boat sank the waves.,0,39,39,35,,,,,,,,,,,,,,,,,,,,,,,,,,,,,,,,,,,,,,,,,197.44907740002964,None,196.47190970007796,197.48245130002033,n,2.1121823999565095,197.44907740002964,None,,,,001,2021_Nov_25_1023,sentPlausibility,2021.2.3,60.04311097439041,
57,False,intransitive,True,The butter softened in the heat.,0,40,40,56,,,,,,,,,,,,,,,,,,,,,,,,,,,,,,,,,,,,,,,,,200.58561880001798,None,199.5867678000359,200.60226400010288,y,2.4391350999940187,200.58561880001798,None,,,,001,2021_Nov_25_1023,sentPlausibility,2021.2.3,60.04311097439041,
40,False,transitive,False,The sand hardened the sun.,0,41,41,39,,,,,,,,,,,,,,,,,,,,,,,,,,,,,,,,,,,,,,,,,204.05565240001306,None,203.05857840005774,204.0723381000571,y,1.8252765000797808,204.05565240001306,None,,,,001,2021_Nov_25_1023,sentPlausibility,2021.2.3,60.04311097439041,
13,True,transitive,True,The assistant shut the store.,0,42,42,12,,,,,,,,,,,,,,,,,,,,,,,,,,,,,,,,,,,,,,,,,206.908622500021,None,205.90926139999647,206.908622500021,y,1.9241830999962986,206.908622500021,None,,,,001,2021_Nov_25_1023,sentPlausibility,2021.2.3,60.04311097439041,
58,False,intransitive,False,The heat softened the butter.,0,43,43,57,,,,,,,,,,,,,,,,,,,,,,,,,,,,,,,,,,,,,,,,,209.8615651000291,None,208.86148530000355,209.8615651000291,y,1.5637621999485418,209.8615651000291,None,,,,001,2021_Nov_25_1023,sentPlausibility,2021.2.3,60.04311097439041,
19,True,intransitive,True,The boat sank in the storm.,0,44,44,18,,,,,,,,,,,,,,,,,,,,,,,,,,,,,,,,,,,,,,,,,212.4473455999978,None,211.45728980004787,212.46403200004715,y,1.8098740000277758,212.4473455999978,None,,,,001,2021_Nov_25_1023,sentPlausibility,2021.2.3,60.04311097439041,
23,True,intransitive,True,The concrete hardened in the sun.,0,45,45,22,,,,,,,,,,,,,,,,,,,,,,,,,,,,,,,,,,,,,,,,,215.28363499999978,None,214.28764250001404,215.30029350006953,y,2.3253525000764057,215.28363499999978,None,,,,001,2021_Nov_25_1023,sentPlausibility,2021.2.3,60.04311097439041,
41,False,transitive,True,The hot water shrank the shirt.,0,46,46,40,,,,,,,,,,,,,,,,,,,,,,,,,,,,,,,,,,,,,,,,,218.6370028000092,None,217.63839590002317,218.65369570010807,y,1.5399821000173688,218.6370028000092,None,,,,001,2021_Nov_25_1023,sentPlausibility,2021.2.3,60.04311097439041,
28,True,intransitive,False,My hands crumbled in the cake.,0,47,47,27,,,,,,,,,,,,,,,,,,,,,,,,,,,,,,,,,,,,,,,,,221.20613520010374,None,220.21725400001742,221.222894800012,n,2.3066290999995545,221.20613520010374,None,,,,001,2021_Nov_25_1023,sentPlausibility,2021.2.3,60.04311097439041,
31,True,intransitive,True,The soup boiled in the pot.,0,48,48,30,,,,,,,,,,,,,,,,,,,,,,,,,,,,,,,,,,,,,,,,,224.54294539999682,None,223.54122670006473,224.54294539999682,y,1.5782789000077173,224.54294539999682,None,,,,001,2021_Nov_25_1023,sentPlausibility,2021.2.3,60.04311097439041,
34,False,transitive,False,Flowers grow his parents on their balcony.,0,49,49,33,,,,,,,,,,,,,,,,,,,,,,,,,,,,,,,,,,,,,,,,,227.14565510000102,229.64765890000854,226.15518270002212,227.1621782000875,n,2.6317304000258446,227.14565510000102,None,,,,001,2021_Nov_25_1023,sentPlausibility,2021.2.3,60.04311097439041,
64,False,intransitive,False,The seams tore along the sweater.,0,50,50,63,,,,,,,,,,,,,,,,,,,,,,,,,,,,,,,,,,,,,,,,,230.79917780007236,233.30128980008885,229.80748210009187,230.81584160006605,y,2.5622344000730664,230.79917780007236,None,,,,001,2021_Nov_25_1023,sentPlausibility,2021.2.3,60.04311097439041,
62,False,intransitive,False,The assistant shut at six o’clock.,0,51,51,61,,,,,,,,,,,,,,,,,,,,,,,,,,,,,,,,,,,,,,,,,234.38607250002678,None,233.3947235000087,234.4027670000214,n,1.8632804999360815,234.38607250002678,None,,,,001,2021_Nov_25_1023,sentPlausibility,2021.2.3,60.04311097439041,
45,False,transitive,True,The boy burst the balloon.,0,52,52,44,,,,,,,,,,,,,,,,,,,,,,,,,,,,,,,,,,,,,,,,,237.27224330010358,None,236.2794063000474,237.28886600001715,y,1.512894699932076,237.27224330010358,None,,,,001,2021_Nov_25_1023,sentPlausibility,2021.2.3,60.04311097439041,
14,True,transitive,False,The store shut the assistant.,0,53,53,13,,,,,,,,,,,,,,,,,,,,,,,,,,,,,,,,,,,,,,,,,239.80818000005092,None,238.81218950008042,239.8248410000233,n,1.7209798000985757,239.80818000005092,None,,,,001,2021_Nov_25_1023,sentPlausibility,2021.2.3,60.04311097439041,
60,False,intransitive,False,The cook heated in the soup.,0,54,54,59,,,,,,,,,,,,,,,,,,,,,,,,,,,,,,,,,,,,,,,,,242.5608540000394,None,241.55948130006436,242.5608540000394,n,1.616541299968958,242.5608540000394,None,,,,001,2021_Nov_25_1023,sentPlausibility,2021.2.3,60.04311097439041,
21,True,intransitive,True,The bomb exploded in the street.,0,55,55,20,,,,,,,,,,,,,,,,,,,,,,,,,,,,,,,,,,,,,,,,,245.1969078000402,None,244.20521310006734,245.21353320009075,y,1.5722632999531925,245.1969078000402,None,,,,001,2021_Nov_25_1023,sentPlausibility,2021.2.3,60.04311097439041,
1,True,transitive,True,The teacher opened the box. ,0,56,56,0,,,,,,,,,,,,,,,,,,,,,,,,,,,,,,,,,,,,,,,,,247.79946420004126,None,246.80730030010454,247.8161307000555,y,1.1856681000208482,247.79946420004126,None,,,,001,2021_Nov_25_1023,sentPlausibility,2021.2.3,60.04311097439041,
24,True,intransitive,False,The sun hardened in the concrete.,0,57,57,23,,,,,,,,,,,,,,,,,,,,,,,,,,,,,,,,,,,,,,,,,250.0017829000717,None,249.00872340006754,250.01838730007876,n,1.4635471000801772,250.0017829000717,None,,,,001,2021_Nov_25_1023,sentPlausibility,2021.2.3,60.04311097439041,
5,True,transitive,True,The waiter poured the wine.,0,58,58,4,,,,,,,,,,,,,,,,,,,,,,,,,,,,,,,,,,,,,,,,,252.4874665000243,None,251.49395270005334,252.50413580005988,y,2.305696600000374,252.4874665000243,None,,,,001,2021_Nov_25_1023,sentPlausibility,2021.2.3,60.04311097439041,
35,False,transitive,True,The waves sank the boat.,0,59,59,34,,,,,,,,,,,,,,,,,,,,,,,,,,,,,,,,,,,,,,,,,255.82407110009808,None,254.82376870000735,255.82407110009808,y,1.4569911999860778,255.82407110009808,None,,,,001,2021_Nov_25_1023,sentPlausibility,2021.2.3,60.04311097439041,
55,False,intransitive,True,The sugar dissolved in the milk.,0,60,60,54,,,,,,,,,,,,,,,,,,,,,,,,,,,,,,,,,,,,,,,,,258.3098999999929,None,257.31788760004565,258.3263892000541,y,1.683352200081572,258.3098999999929,None,,,,001,2021_Nov_25_1023,sentPlausibility,2021.2.3,60.04311097439041,
10,True,transitive,False,The butter softened the heat.,0,61,61,9,,,,,,,,,,,,,,,,,,,,,,,,,,,,,,,,,,,,,,,,,261.0126668000594,None,260.0164899000665,261.02933010004926,n,1.7723943000892177,261.0126668000594,None,,,,001,2021_Nov_25_1023,sentPlausibility,2021.2.3,60.04311097439041,
50,False,intransitive,False,The teacher opened after a short while.,0,62,62,49,,,,,,,,,,,,,,,,,,,,,,,,,,,,,,,,,,,,,,,,,263.81556990009267,None,262.8212740001036,263.83222410001326,n,1.3456586999818683,263.81556990009267,None,,,,001,2021_Nov_25_1023,sentPlausibility,2021.2.3,60.04311097439041,
27,True,intransitive,True,The cake crumbled in my hands.,0,63,63,26,,,,,,,,,,,,,,,,,,,,,,,,,,,,,,,,,,,,,,,,,266.16770860005636,None,265.1903232000768,266.20137640007306,y,2.137208699947223,266.16770860005636,None,,,,001,2021_Nov_25_1023,sentPlausibility,2021.2.3,60.04311097439041,
,,,,,,,,,,,,,,,,,,,,,,,,,,,,,,,,,,,,,,,,,,,,,,,,,,,,,,,,,268.33733890007716,None,,,,,,,
